Folder: dataTool_2602/smoothing_ref/dvdqraw

Note: smoothing_ref/dvdqraw/Gen4P 4905mAh HHP ATL 055CY.txt
Capacity (mAh), Voltage (V)
0, 4.488609
0.013, 4.451712
16.336, 4.421834
32.685, 4.409942
49.035, 4.400189
65.385, 4.391953
81.735, 4.384881
98.085, 4.378533
114.434, 4.373044
130.784, 4.367734
147.134, 4.362981
163.484, 4.358708
179.834, 4.354563
196.184, 4.350783
212.533, 4.347004
228.883, 4.343471
245.233, 4.339809
261.583, 4.336757
277.932, 4.333339
294.282, 4.329923
310.632, 4.326687
326.982, 4.323454
343.332, 4.320284
359.682, 4.317238
376.031, 4.313885
392.381, 4.310536
408.731, 4.307488
425.081, 4.30438
441.43, 4.301023
457.78, 4.29791
474.13, 4.294678
490.48, 4.291015
506.83, 4.287966
523.179, 4.284674
539.529, 4.281257
555.879, 4.278146
572.229, 4.274613
588.579, 4.271197
604.928, 4.267843
621.278, 4.264428
637.628, 4.260833
653.978, 4.257474
670.327, 4.253996
686.677, 4.250461
703.027, 4.246804
719.377, 4.243444
735.727, 4.239604
752.077, 4.235821
768.426, 4.232165
784.776, 4.228691
801.126, 4.224855
817.476, 4.221201
833.825, 4.217532
850.175, 4.213931
866.525, 4.21015
882.875, 4.206251
899.225, 4.202588
915.574, 4.198627
931.924, 4.194959
948.274, 4.191001
964.624, 4.187037
980.974, 4.183075
997.324, 4.179423
1013.673, 4.175513
1030.023, 4.171487
1046.373, 4.167765
1062.723, 4.163863
1079.072, 4.160079
1095.422, 4.156176
1111.772, 4.151968
1128.122, 4.148307
1144.472, 4.144352
1160.821, 4.140381
1177.171, 4.136421
1193.521, 4.132454
1209.871, 4.128491
1226.221, 4.124528
1242.57, 4.120557
1258.92, 4.116901
1275.27, 4.112755
1291.62, 4.108915
1307.97, 4.104764
1324.32, 4.100797
1340.669, 4.097081
1357.019, 4.09312
1373.369, 4.089154
1389.718, 4.085192
1406.068, 4.08123
1422.418, 4.077514
1438.768, 4.073304
1455.118, 4.069401
1471.467, 4.06537
1487.817, 4.061405
1504.167, 4.057441
1520.517, 4.053296
1536.867, 4.049268
1553.216, 4.045243
1569.566, 4.041283
1585.916, 4.037013
1602.266, 4.033044
1618.616, 4.028786
1634.965, 4.024816
1651.315, 4.020548
1667.665, 4.016274
1684.015, 4.012007
1700.364, 4.007735
1716.714, 4.003527
1733.064, 3.999502
1749.414, 3.995052
1765.764, 3.990728
1782.114, 3.986582
1798.464, 3.982433
1814.813, 3.977859
1831.163, 3.973651
1847.513, 3.969624
1863.863, 3.96566
1880.213, 3.96158
1896.562, 3.957434
1912.912, 3.953649
1929.262, 3.949812
1945.611, 3.946147
1961.961, 3.942487
1978.311, 3.938824
1994.661, 3.935163
2011.011, 3.931808
2027.36, 3.928452
2043.71, 3.925225
2060.06, 3.922052
2076.41, 3.918702
2092.76, 3.915654
2109.109, 3.912603
2125.459, 3.909243
2141.809, 3.906505
2158.159, 3.903451
2174.509, 3.9004
2190.859, 3.897479
2207.208, 3.89461
2223.558, 3.891871
2239.908, 3.889072
2256.257, 3.886082
2272.607, 3.883518
2288.957, 3.880593
2305.307, 3.878144
2321.657, 3.875404
2338.006, 3.87284
2354.356, 3.870217
2370.706, 3.86766
2387.056, 3.865037
2403.406, 3.862534
2419.756, 3.859855
2436.105, 3.857473
2452.455, 3.854972
2468.805, 3.852535
2485.155, 3.850091
2501.504, 3.84765
2517.854, 3.84521
2534.204, 3.842767
2550.554, 3.840332
2566.904, 3.837953
2583.254, 3.835762
2599.603, 3.833321
2615.953, 3.830885
26

File: S25_291_anode_dchg_02C - 복사본.txt
Capacity (mAh), Voltage (V)
0, 0.0984173
0.0631377, 0.102063
0.0704596, 0.101887
0.0777815, 0.102456
0.0851034, 0.102479
0.0924254, 0.102942
0.0997473, 0.103013
0.107069, 0.103005
0.114391, 0.103439
0.121713, 0.103433
0.129035, 0.103948
0.136357, 0.10417
0.143679, 0.104594
0.151001, 0.104428
0.158323, 0.1049652
0.165645, 0.105446
0.172967, 0.104994
0.180288, 0.105566
0.18761, 0.105163
0.194932, 0.106265
0.202254, 0.105508
0.209576, 0.105882
0.216898, 0.106018
0.22422, 0.10662
0.2315419, 0.106665
0.238864, 0.106868
0.246186, 0.106974
0.253508, 0.106667
0.26083, 0.106803
0.268152, 0.10725
0.275473, 0.107441
0.282795, 0.107227
0.290117, 0.107262
0.297439, 0.107281
0.304761, 0.107063
0.312083, 0.107747
0.319405, 0.107703
0.326727, 0.107753
0.334049, 0.10775
0.341371, 0.108001
0.348693, 0.108267
0.356015, 0.10814
0.363337, 0.108207
0.370658, 0.108432
0.37798, 0.108859
0.385302, 0.108899
0.392624, 0.109397
0.399946, 0.109342
0.407268, 0.109714
0.41459, 0.109736
0.421912, 0.110127
0.429234, 0.1105957
0.436556, 0.110496
0.443878, 0.11079
0.4512, 0.110942
0.458522, 0.111267
0.465843, 0.111339
0.473165, 0.111612
0.480487, 0.111962
0.487809, 0.112086
0.495131, 0.112322
0.502453, 0.112349
0.509775, 0.112809
0.517097, 0.112874
0.524419, 0.113249
0.531741, 0.113469
0.539063, 0.113875
0.546385, 0.113967
0.553707, 0.1141243
0.561028, 0.114525
0.56835, 0.114501
0.575672, 0.115081
0.582994, 0.115177
0.590316, 0.115534
0.597638, 0.115663
0.60496, 0.115928
0.612282, 0.116654
0.619604, 0.116865
0.626926, 0.116697
0.634248, 0.116973
0.64157, 0.117347
0.648892, 0.117468
0.656213, 0.117926
0.663535, 0.117959
0.670857, 0.118206
0.678179, 0.118233
0.685501, 0.118512
0.692823, 0.11914
0.700145, 0.119239
0.707467, 0.119568
0.714789, 0.119558
0.722111, 0.120078
0.729433, 0.120239
0.736755, 0.120571
0.744077, 0.120805
0.751398, 0.121045
0.75872, 0.121618
0.766042, 0.121955
0.773364, 0.122356
0.780686, 0.12281
0.788008, 0.1228
0.79533, 0.123189
0.802652, 0.123503
0.809974, 0.123323
0.817296, 0.123745
0.824618, 0.124525
0.83194, 0.124777
0.839262, 0.124795
0.846583, 0.125089
0.853905, 0.125518
0.861227, 0.125918
0.868549, 0.1263
0.875871, 0.12673
0.883193, 0.127019
0.890515, 0.127255
0.897837, 0.127904
0.905159, 0.128333
0.912481, 0.129005
0.919803, 0.129819
0.927125, 0.130448
0.934447, 0.131175
0.941768, 0.131976
0.94909, 0.1328
0.956412, 0.13336
0.963734, 0.134538
0.971056, 0.135611
0.978378, 0.136765
0.9857, 0.13794
0.993022, 0.138887
1.00034, 0.139997
1.00767, 0.141009
1.01499, 0.14177
1.02231, 0.142798
1.02963, 0.1436
1.03695, 0.144217
1.04428, 0.144849
1.0516, 0.145356
1.05892, 0.145937
1.06624, 0.146458
1.07356, 0.146857
1.08088, 0.147315
1.08821, 0.147401
1.09553, 0.147648
1.10285, 0.147969
1.11017, 0.147981
1.11749, 0.148272
1.12482, 0.148363
1.13214, 0.148398
1.13946, 0.148772
1.14678, 0.149077
1.1541, 0.149171
1.16143, 0.149241
1.16875, 0.149582
1.17607, 0.149514
1.18339, 0.149617
1.19071, 0.14994
1.19804, 0.150167
1.20536, 0.150193
1.21268, 0.150039
1.22, 0.150562
1.22732, 0.150506
1.23465, 0.151016
1.24197, 0.150916
1.24929, 0.151074
1.25661, 0.151503
1.26393, 0.151401
1.27125, 0.151802
1.27858, 0.151684
1.2859, 0.152095
1.29322, 0.152158
1.30054, 0.152147
1.30786, 0.152187
1.31519, 0.152583
1.32251, 0.152665
1.32983, 0.15314
1.33715, 0.153349
1.34447, 0.153086
1.3518, 0.153325
1.35912, 0.153544
1.36644, 0.15357
1.37376, 0.153804
1.38108, 0.153988
1.38841, 0.153983
1.39573, 0.154552
1.40305, 0.154802
1.41037, 0.154824
1.41769, 0.155172
1.42502, 0.155254
1.43234, 0.155419
1.43966, 0.155455
1.44698, 0.155962
1.4543, 0.155963
1.46162, 0.156074
1.46895, 0.156174
1.47627, 0.156413
1.48359, 0.156783
1.49091, 0.157048
1.49823, 0.157171
1.50556, 0.157415
1.51288, 0.157907
1.5202, 0.15813
1.52752, 0.158262
1.53484, 0.158505
1.54217, 0.158779
1.54949, 0.158976
1.55681, 0.159326
1.56413, 0.159579
1.57145, 0.15982
1.57878, 0.160217
1.5861, 0.160041
1.59342, 0.160585
1.60074, 0.160862
1.60806, 0.16158
1.61539, 0.162022
1.62271, 0.162343
1.63003, 0.162632
1.63735, 0.163311
1.64467, 0.163834
1.652, 0.164294
1.65932, 0.164856
1.66664, 0.165613
1.67396, 0.166455
1.68128, 0.167032
1.6886, 0.1677924
1.69593, 0.168824
1.70325, 0.16986
1.71057, 0.170774
1.71789, 0.171679
1.72521, 0.172709
1.73254, 0.173618
1.73986, 0.174439
1.74718, 0.175611
1.7545, 0.176539
1.76182, 0.177511
1.76915, 0.178536
1.77647, 0.1797
1.78379, 0.18069
1.79111, 0.181865
1.79843, 0.182924
1.80576, 0.183881
1.81308, 0.184605
1.8204, 0.18573
1.82772, 0.186654
1.83504, 0.187671
1.84237, 0.188525
1.84969, 0.189439
1.85701, 0.190497
1.86433, 0.191523
1.87165, 0.192451
1.87897, 0.193811
1.8863, 0.194829
1.89362, 0.196204
1.90094, 0.197548
1.90826, 0.199074
1.91558, 0.200446
1.92291, 0.202261
1.93023, 0.203872
1.93755, 0.205457
1.94487, 0.207422
1.95219, 0.209328
1.95952, 0.211079
1.96684, 0.212898
1.97416, 0.214919
1.98148, 0.216697
1.9888, 0.21856
1.99613, 0.220644
2.00345, 0.223133
2.01077, 0.225058
2.01809, 0.227619
2.02541, 0.229782
2.03274, 0.231402
2.04006, 0.2328463
2.04738, 0.233752
2.0547, 0.234371
2.06202, 0.234925
2.06934, 0.235561
2.07667, 0.236159
2.08399, 0.236812
2.09131, 0.237404
2.09863, 0.23804
2.10595, 0.238444
2.11328, 0.239156
2.1206, 0.240054
2.12792, 0.240358
2.13524, 0.241152
2.14256, 0.2423672
2.14989, 0.243043
2.15721, 0.243886
2.16453, 0.244935
2.17185, 0.246542
2.17917, 0.248799
2.1865, 0.252035
2.19382, 0.256402
2.20114, 0.263442
2.20846, 0.272241
2.21578, 0.283923
2.24595, 0.341341
2.2898, 0.498613
2.32523, 1.20742
2.32652, 1.35645

File: S25_291_cathode_dchg_02C - 복사본.txt
Capacity (mAh), Voltage (V)
0, 4.51557
0.006941361, 4.4951
0.0148083, 4.49145
0.02294, 4.48821
0.0310055, 4.485
0.0389388, 4.48283
0.0471366, 4.47957
0.0550698, 4.4767
0.0633337, 4.47357
0.0715313, 4.4706
0.0797951, 4.46827
0.0879928, 4.46513
0.09605825, 4.46229
0.103991, 4.45926
0.111792, 4.45613
0.119395, 4.45313
0.12713, 4.45013
0.134997, 4.44712
0.142666, 4.44411
0.150533, 4.44048
0.158334, 4.43713
0.166069, 4.43413
0.173738, 4.43067
0.181803, 4.42717
0.189538, 4.42357
0.197207, 4.42057
0.205141, 4.41654
0.212677, 4.41357
0.220478, 4.40957
0.228411, 4.40572
0.236675, 4.40257
0.244807, 4.39786
0.252674, 4.39442
0.260806, 4.39028
0.268937, 4.38628
0.277069, 4.382
0.285135, 4.378
0.293068, 4.374
0.301067, 4.36957
0.308538, 4.36558
0.316735, 4.36111
0.324801, 4.35728
0.332932, 4.35267
0.340998, 4.34842
0.348667, 4.34441
0.356798, 4.33994
0.364666, 4.33572
0.372929, 4.33103
0.381392, 4.32676
0.389258, 4.32269
0.397522, 4.31777
0.405852, 4.31343
0.414182, 4.30909
0.422512, 4.30472
0.430776, 4.3
0.438643, 4.29572
0.446709, 4.29111
0.454973, 4.287
0.462774, 4.28271
0.470575, 4.27847
0.478508, 4.27395
0.486309, 4.27004
0.493846, 4.26566
0.501449, 4.26182
0.509448, 4.25748
0.517315, 4.25328
0.525315, 4.24924
0.532917, 4.24516
0.540719, 4.24072
0.54852, 4.23677
0.556321, 4.23242
0.564188, 4.22861
0.572386, 4.22426
0.580517, 4.22032
0.588649, 4.21576
0.59645, 4.21175
0.604317, 4.20762
0.611854, 4.20395
0.619721, 4.19995
0.627984, 4.19546
0.635719, 4.19165
0.643785, 4.18735
0.651784, 4.18332
0.659849, 4.17943
0.667584, 4.17559
0.675782, 4.17131
0.683913, 4.16769
0.692045, 4.16381
0.700176, 4.15967
0.708242, 4.15571
0.71624, 4.15184
0.724372, 4.14836
0.732107, 4.14461
0.740172, 4.14071
0.748039, 4.13716
0.755443, 4.13367
0.763575, 4.1297
0.771706, 4.12616
0.779639, 4.1225
0.788035, 4.11863
0.79577, 4.11511
0.803902, 4.11157
0.811901, 4.10783
0.81957, 4.10465
0.827635, 4.10112
0.835502, 4.09755
0.843369, 4.09426
0.851632, 4.09073
0.859896, 4.08726
0.867962, 4.08402
0.876292, 4.08053
0.884093, 4.07717
0.892224, 4.07411
0.900422, 4.07079
0.908487, 4.06768
0.916817, 4.06457
0.924948, 4.06117
0.93308, 4.0581
0.941344, 4.05502
0.949541, 4.05196
0.957673, 4.04892
0.966069, 4.04587
0.974068, 4.04306
0.9823975, 4.04028
0.990661, 4.03728
0.998594, 4.03428
1.00712, 4.03144
1.01545, 4.02878
1.02352, 4.0255
1.03191, 4.023
1.04051, 4.01994
1.04897, 4.01699
1.05684, 4.01481
1.0651, 4.01228
1.0731, 4.0095
1.08169, 4.00692
1.09009, 4.00428
1.09842, 4.00211
1.10662, 3.99941
1.11501, 3.997
1.12295, 3.99474
1.13134, 3.99228
1.13954, 3.99006
1.1478, 3.98768
1.15607, 3.98528
1.16433, 3.98307
1.1724, 3.98101
1.1804, 3.97885
1.18853, 3.97651
1.19633, 3.97449
1.20433, 3.97209
1.21246, 3.9702
1.22053, 3.96817
1.22866, 3.96613
1.23685, 3.96432
1.24485, 3.96212
1.25312, 3.96013
1.26118, 3.95848
1.26925, 3.95613
1.27712, 3.9546
1.28505, 3.95291
1.29298, 3.95103
1.30085, 3.94941
1.30865, 3.94719
1.31645, 3.94569
1.32412, 3.94413
1.33238, 3.94213
1.34058, 3.94064
1.34871, 3.93909
1.35685, 3.93734
1.36491, 3.93591
1.37284, 3.93441
1.38091, 3.93276
1.38897, 3.9314
1.3973, 3.92954
1.4057, 3.92824
1.41403, 3.92677
1.42229, 3.9252
1.43003, 3.92387
1.4381, 3.92265
1.44636, 3.92098
1.45442, 3.9197
1.46269, 3.91852
1.47082, 3.91698
1.47888, 3.91598
1.48682, 3.91461
1.49475, 3.91348
1.50295, 3.9122
1.51082, 3.91098
1.51908, 3.91002
1.52728, 3.90898
1.53548, 3.90776
1.54394, 3.90657
1.55227, 3.90548
1.5606, 3.90448
1.56886, 3.90359
1.57719, 3.90248
1.58565, 3.90148
1.59425, 3.90048
1.60278, 3.89998
1.61097, 3.89898
1.61917, 3.89798
1.62724, 3.89743
1.63523, 3.89648
1.64343, 3.8957
1.6517, 3.8952
1.65943, 3.89448
1.66763, 3.89376
1.67569, 3.89305
1.68376, 3.89251
1.69182, 3.8917
1.69989, 3.8912
1.70802, 3.89062
1.71615, 3.8902
1.72402, 3.8897
1.73222, 3.8892
1.740019, 3.88863
1.74802, 3.88804
1.75602, 3.88794
1.76415, 3.88743
1.77235, 3.88726
1.78041, 3.88663
1.78861, 3.88633
1.79674, 3.88604
1.80461, 3.88583
1.81261, 3.88557
1.82081, 3.88505
1.82887, 3.88467
1.83674, 3.88417
1.8448, 3.88396
1.85294, 3.88374
1.86126, 3.88324
1.86933, 3.88274
1.87766, 3.88252
1.88586, 3.8824
1.89386, 3.88209
1.90205, 3.88156
1.91025, 3.88115
1.91845, 3.88065
1.92658, 3.88043
1.93491, 3.88022
1.94337, 3.87959
1.95157, 3.87946
1.9597, 3.87907
1.9679, 3.87857
1.97583, 3.87813
1.98363, 3.87763
1.99143, 3.8772
1.99904, 3.8767
2.0069, 3.87626
2.01484, 3.87583
2.0231, 3.87511
2.0313, 3.87488
2.03976, 3.87396
2.04796, 3.87352
2.05629, 3.87291
2.06448, 3.87211
2.07281, 3.87122
2.08108, 3.87028
2.08941, 3.86963
2.09787, 3.86848
2.10613, 3.86771
2.1144, 3.86649
2.12266, 3.86506
2.13099, 3.86386
2.13952, 3.86217
2.14772, 3.86052
2.15605, 3.85842
2.16438, 3.8563
2.17211, 3.8541
2.18018, 3.85074
2.18817, 3.84726
2.19617, 3.84279
2.20431, 3.83732
2.21244, 3.8301
2.2207, 3.82114
2.22877, 3.80898
2.23703, 3.79323
2.24496, 3.77696
2.25336, 3.75994
2.26122, 3.74546
2.26929, 3.72987
2.27656, 3.70712
2.28364, 3.6744
2.29163, 3.6388
2.30003, 3.60836
2.30843, 3.56845
2.31676, 3.48994
2.32092, 3.42553